block_type,blocks.thisRepN,blocks.thisTrialN,blocks.thisN,blocks.thisIndex,trials.thisRepN,trials.thisTrialN,trials.thisN,trials.thisIndex,thisRow.t,notes,setup.started,setup.stopped,wait_for_trigger.started,trigger_key.started,wait_for_trigger.stopped,trigger_key.keys,trigger_key.rt,trigger_key.duration,block_start.started,block_instr_text.started,block_start.stopped,block_instr_key.keys,block_instr_key.rt,block_instr_key.duration,trial.started,fixation.started,stim_sound.started,fixation.stopped,stim_sound.stopped,resp.started,resp_prompt.started,trial.stopped,resp.keys,resp.stopped,resp_prompt.stopped,resp.rt,resp.duration,end.started,end_text.started,end_key.started,end_text.stopped,participant,run,date,expName,psychopyVersion,frameRate,expStart,
,,,,,,,,,,,0.01746659999480471,0.018056599990813993,0.018085299991071224,0.03525190000073053,8.2866165000014,s,8.234947899996769,None,,,,,,,,,,,,,,,,,,,,,,,,pilot08,1,2025-12-30_12h34.43.225,auditory_semantic_1back_pilot,2023.2.3,59.86235250560915,2025-12-30 12h34.58.776884 +0100,
BASE,0,0,0,0,0,0,0,0,9.301636999996845,,,,,,,,,,8.291684600000735,8.350137500005076,9.286664300001576,space,0.9229915999894729,None,9.287566400002106,9.301636999996845,0.00579390001075808,10.3336707999988,0.9983570000040345,10.3336707999988,10.3336707999988,12.302135799996904,None,,,,,,,,,pilot08,1,2025-12-30_12h34.43.225,auditory_semantic_1back_pilot,2023.2.3,59.86235250560915,2025-12-30 12h34.58.776884 +0100,
BASE,0,0,0,0,1,0,1,0,12.318466600001557,,,,,,,,,,,,,,,,12.302690800002893,12.318466600001557,0.02141450000635814,13.367187900003046,1.0152934000070672,13.301810599994496,13.301810599994496,15.286029199996847,None,15.301906900000176,15.301906900000176,,,,,,,pilot08,1,2025-12-30_12h34.43.225,auditory_semantic_1back_pilot,2023.2.3,59.86235250560915,2025-12-30 12h34.58.776884 +0100,
BASE,0,0,0,0,2,0,2,0,15.301906900000176,,,,,,,,,,,,,,,,15.286423199999263,15.301906900000176,0.004820100002689287,16.317092400000547,0.9983570000040345,16.317092400000547,16.317092400000547,18.302271599997766,d,,,0.4355803000071319,None,,,,,pilot08,1,2025-12-30_12h34.43.225,auditory_semantic_1back_pilot,2023.2.3,59.86235250560915,2025-12-30 12h34.58.776884 +0100,
BASE,0,0,0,0,3,0,3,0,18.318500499997754,,,,,,,,,,,,,,,,18.303058899997268,18.318500499997754,0.022303300007479265,19.350416899993434,1.0158983000001172,19.302012899992405,19.302012899992405,21.28608659999736,None,21.302028899997822,21.302028899997822,,,,,,,pilot08,1,2025-12-30_12h34.43.225,auditory_semantic_1back_pilot,2023.2.3,59.86235250560915,2025-12-30 12h34.58.776884 +0100,
BASE,0,0,0,0,4,0,4,0,21.302028899997822,,,,,,,,,,,,,,,,21.28646960000333,21.302028899997822,0.00495900001260452,22.317222800003947,0.9986497000063537,22.317222800003947,22.317222800003947,24.302265799997258,None,,,,,,,,,pilot08,1,2025-12-30_12h34.43.225,auditory_semantic_1back_pilot,2023.2.3,59.86235250560915,2025-12-30 12h34.58.776884 +0100,
BASE,0,0,0,0,5,0,5,0,24.318822100001853,,,,,,,,,,,,,,,,24.302680099994177,24.318822100001853,0.020805300009669736,25.350416799992672,1.015737400011858,25.302053399995202,25.302053399995202,27.28751559999364,None,27.317330399993807,27.317330399993807,,,,,,,pilot08,1,2025-12-30_12h34.43.225,auditory_semantic_1back_pilot,2023.2.3,59.86235250560915,2025-12-30 12h34.58.776884 +0100,
BASE,0,0,0,0,6,0,6,0,27.317330399993807,,,,,,,,,,,,,,,,27.28813829999126,27.317330399993807,0.007999300010851584,28.35233199999493,0.999022200005129,28.334088699994027,28.334088699994027,30.30241709999973,None,,,,,,,,,pilot08,1,2025-12-30_12h34.43.225,auditory_semantic_1back_pilot,2023.2.3,59.86235250560915,2025-12-30 12h34.58.776884 +0100,
BASE,0,0,0,0,7,0,7,0,30.318925300001865,,,,,,,,,,,,,,,,30.302821499994025,30.318925300001865,0.021340800012694672,31.319008499995107,1.0156138000020292,31.302108699994278,31.302108699994278,33.28663719999895,None,33.33401609999419,33.33401609999419,,,,,,,pilot08,1,2025-12-30_12h34.43.225,auditory_semantic_1back_pilot,2023.2.3,59.86235250560915,2025-12-30 12h34.58.776884 +0100,
BASE,0,0,0,0,,,,,,,,,,,,,,,,,,,,,,,,,,,,,,,,,,,,,,pilot08,1,2025-12-30_12h34.43.225,auditory_semantic_1back_pilot,2023.2.3,59.86235250560915,2025-12-30 12h34.58.776884 +0100,
CON,0,1,1,1,0,0,0,0,92.41805350000504,,,,,,,,,,33.287088299999596,33.33401609999419,92.38779419999628,space,59.04094080001232,None,92.38898190000327,92.41805350000504,0.007961199997225776,93.46964959999605,0.998153699998511,93.45139319999726,93.45139319999726,95.40408330000355,None,,,,,,,,,pilot08,1,2025-12-30_12h34.43.225,auditory_semantic_1back_pilot,2023.2.3,59.86235250560915,2025-12-30 12h34.58.776884 +0100,
CON,0,1,1,1,1,0,1,0,95.41963970000506,,,,,,,,,,,,,,,,95.40478529999382,95.41963970000506,0.023318599996855482,96.41977759999281,1.0317232999950647,96.40269380000245,96.40269380000245,98.38776040000084,None,98.40324430000328,98.40324430000328,,,,,,,pilot08,1,2025-12-30_12h34.43.225,auditory_semantic_1back_pilot,2023.2.3,59.86235250560915,2025-12-30 12h34.58.776884 +0100,
CON,0,1,1,1,2,0,2,0,98.40324430000328,,,,,,,,,,,,,,,,98.38833479999448,98.40324430000328,0.006442300000344403,99.46857610000006,0.998389500004123,99.46857610000006,99.46857610000006,101.40397519999533,None,,,,,,,,,pilot08,1,2025-12-30_12h34.43.225,auditory_semantic_1back_pilot,2023.2.3,59.86235250560915,2025-12-30 12h34.58.776884 +0100,
CON,0,1,1,1,3,0,3,0,101.42025260000082,,,,,,,,,,,,,,,,101.40451759999269,101.42025260000082,0.02236790000461042,102.43487040000036,1.015945399994962,102.4032986999955,102.4032986999955,104.38726119999774,None,104.40292799999588,104.40292799999588,,,,,,,pilot08,1,2025-12-30_12h34.43.225,auditory_semantic_1back_pilot,2023.2.3,59.86235250560915,2025-12-30 12h34.58.776884 +0100,
CON,0,1,1,1,4,0,4,0,104.40292799999588,,,,,,,,,,,,,,,,104.38788219999697,104.40292799999588,0.006788899991079234,105.45169750000059,0.9985118000040529,105.45169750000059,105.45169750000059,107.40379240000038,None,,,,,,,,,pilot08,1,2025-12-30_12h34.43.225,auditory_semantic_1back_pilot,2023.2.3,59.86235250560915,2025-12-30 12h34.58.776884 +0100,
CON,0,1,1,1,5,0,5,0,107.43527879999601,,,,,,,,,,,,,,,,107.404589999991,107.43527879999601,0.025838100002147257,108.50328479999735,1.0155394000030356,108.40312609999091,108.40312609999091,110.38713689999713,None,110.40365120000206,110.40365120000206,,,,,,,pilot08,1,2025-12-30_12h34.43.225,auditory_semantic_1back_pilot,2023.2.3,59.86235250560915,2025-12-30 12h34.58.776884 +0100,
CON,0,1,1,1,6,0,6,0,110.40365120000206,,,,,,,,,,,,,,,,110.38752889999887,110.40365120000206,0.00498929999594111,111.48549559999083,0.9995627000025706,111.48549559999083,111.48549559999083,113.40373940000427,None,,,,,,,,,pilot08,1,2025-12-30_12h34.43.225,auditory_semantic_1back_pilot,2023.2.3,59.86235250560915,2025-12-30 12h34.58.776884 +0100,
CON,0,1,1,1,7,0,7,0,113.41962509999576,,,,,,,,,,,,,,,,113.40435050000087,113.41962509999576,0.024358299997402355,114.45180229999823,1.0158061999973143,114.40341590000025,114.40341590000025,116.38842380000278,None,116.45365409999795,116.45365409999795,,,,,,,pilot08,1,2025-12-30_12h34.43.225,auditory_semantic_1back_pilot,2023.2.3,59.86235250560915,2025-12-30 12h34.58.776884 +0100,
CON,0,1,1,1,,,,,,,,,,,,,,,,,,,,,,,,,,,,,,,,,,,,,,pilot08,1,2025-12-30_12h34.43.225,auditory_semantic_1back_pilot,2023.2.3,59.86235250560915,2025-12-30 12h34.58.776884 +0100,
,,,,,,,,,,,,,,,,,,,,,,,,,,,,,,,,,,,,,,116.38883300000452,116.45365409999795,116.45365409999795,117.45361799999955,,,,,,,,
