block_type,blocks.thisRepN,blocks.thisTrialN,blocks.thisN,blocks.thisIndex,trials.thisRepN,trials.thisTrialN,trials.thisN,trials.thisIndex,thisRow.t,notes,setup.started,setup.stopped,wait_for_trigger.started,trigger_key.started,wait_for_trigger.stopped,trigger_key.keys,trigger_key.rt,trigger_key.duration,block_start.started,block_instr_text.started,block_start.stopped,block_instr_key.keys,block_instr_key.rt,block_instr_key.duration,trial.started,fixation.started,stim_sound.started,stim_sound.stopped,resp.started,resp_prompt.started,fixation.stopped,trial.stopped,resp.keys,resp.stopped,resp_prompt.stopped,end.started,end_text.started,end_key.started,end_text.stopped,end.stopped,end_key.keys,end_key.rt,end_key.duration,participant,run,date,expName,psychopyVersion,frameRate,expStart,
,,,,,,,,,,,0.020844300001044758,0.021606800000881776,0.02163230000587646,0.03824680000252556,7.139088399999309,s,7.095382600004086,None,,,,,,,,,,,,,,,,,,,,,,,,,,pilot08,1,2025-12-30_12h20.25.369,auditory_semantic_1back_pilot,2023.2.3,59.605980624823864,2025-12-30 12h20.40.330801 +0100,
BASE,0,0,0,0,0,0,0,0,7.6872535000002244,,,,,,,,,,7.144711999993888,7.1865859999961685,7.656731199997012,space,0.4561152999958722,None,7.657990699997754,7.6872535000002244,0.008397999990847893,0.99814619999961,8.737413599999854,8.737413599999854,8.755049100000178,10.672377299997606,None,,,,,,,,,,,pilot08,1,2025-12-30_12h20.25.369,auditory_semantic_1back_pilot,2023.2.3,59.605980624823864,2025-12-30 12h20.40.330801 +0100,
BASE,0,0,0,0,1,0,1,0,10.688354500001878,,,,,,,,,,,,,,,,10.672991400002502,10.688354500001878,0.02256929999566637,1.0163033999997424,11.67266440000094,11.67266440000094,11.753723000001628,13.65631150000263,None,13.687260199993034,13.687260199993034,,,,,,,,,pilot08,1,2025-12-30_12h20.25.369,auditory_semantic_1back_pilot,2023.2.3,59.605980624823864,2025-12-30 12h20.40.330801 +0100,
BASE,0,0,0,0,2,0,2,0,13.687260199993034,,,,,,,,,,,,,,,,13.656993600001442,13.687260199993034,0.008870699995895848,0.9977388999977848,14.719916700007161,14.719916700007161,14.738198799997917,16.67202840000391,None,,,,,,,,,,,pilot08,1,2025-12-30_12h20.25.369,auditory_semantic_1back_pilot,2023.2.3,59.605980624823864,2025-12-30 12h20.40.330801 +0100,
BASE,0,0,0,0,3,0,3,0,16.704154899998684,,,,,,,,,,,,,,,,16.67260299999907,16.704154899998684,0.02525690000038594,1.0158116999955382,17.67231229999743,17.67231229999743,17.738431299992953,19.65641520000645,None,19.687101599993184,19.687101599993184,,,,,,,,,pilot08,1,2025-12-30_12h20.25.369,auditory_semantic_1back_pilot,2023.2.3,59.605980624823864,2025-12-30 12h20.40.330801 +0100,
BASE,0,0,0,0,4,0,4,0,19.687101599993184,,,,,,,,,,,,,,,,19.65701359999366,19.687101599993184,0.007736500003375113,0.9979241999972146,20.703929499999504,20.703929499999504,20.72175490000518,22.67201130000467,None,,,,,,,,,,,pilot08,1,2025-12-30_12h20.25.369,auditory_semantic_1back_pilot,2023.2.3,59.605980624823864,2025-12-30 12h20.40.330801 +0100,
BASE,0,0,0,0,5,0,5,0,22.704248499998357,,,,,,,,,,,,,,,,22.672649400003138,22.704248499998357,0.025734399998327717,1.015527800002019,23.67192540000542,23.67192540000542,23.755464799993206,25.656853799999226,None,25.686967799993,25.686967799993,,,,,,,,,pilot08,1,2025-12-30_12h20.25.369,auditory_semantic_1back_pilot,2023.2.3,59.605980624823864,2025-12-30 12h20.40.330801 +0100,
BASE,0,0,0,0,6,0,6,0,25.686967799993,,,,,,,,,,,,,,,,25.657418300004792,25.686967799993,0.008917200000723824,0.9981570999952964,26.704068799997913,26.704068799997913,26.721925799996825,28.672289800000726,None,,,,,,,,,,,pilot08,1,2025-12-30_12h20.25.369,auditory_semantic_1back_pilot,2023.2.3,59.605980624823864,2025-12-30 12h20.40.330801 +0100,
BASE,0,0,0,0,7,0,7,0,28.68856140000571,,,,,,,,,,,,,,,,28.672947099999874,28.68856140000571,0.02353249999578111,1.0160628000012366,29.672439400004805,29.672439400004805,29.704359299998032,31.65667029999895,None,31.7042189000058,31.7042189000058,,,,,,,,,pilot08,1,2025-12-30_12h20.25.369,auditory_semantic_1back_pilot,2023.2.3,59.605980624823864,2025-12-30 12h20.40.330801 +0100,
BASE,0,0,0,0,,,,,,,,,,,,,,,,,,,,,,,,,,,,,,,,,,,,,,,,pilot08,1,2025-12-30_12h20.25.369,auditory_semantic_1back_pilot,2023.2.3,59.605980624823864,2025-12-30 12h20.40.330801 +0100,
CON,0,1,1,1,0,0,0,0,45.87154219999502,,,,,,,,,,31.657252699995297,31.7042189000058,45.84211319999304,space,14.131243199997698,None,45.84323210000002,45.87154219999502,0.008350300005986355,1.014102900007856,46.85568300000159,46.85568300000159,46.8878207999951,48.84073710000666,None,48.87137100000109,48.87137100000109,,,,,,,,,pilot08,1,2025-12-30_12h20.25.369,auditory_semantic_1back_pilot,2023.2.3,59.605980624823864,2025-12-30 12h20.40.330801 +0100,
CON,0,1,1,1,1,0,1,0,48.87137100000109,,,,,,,,,,,,,,,,48.84145449999778,48.87137100000109,0.005873700007214211,0.9976449000096181,49.93794350000098,49.93794350000098,49.95572420000099,51.855783499995596,None,,,,,,,,,,,pilot08,1,2025-12-30_12h20.25.369,auditory_semantic_1back_pilot,2023.2.3,59.605980624823864,2025-12-30 12h20.40.330801 +0100,
CON,0,1,1,1,2,0,2,0,51.872439500002656,,,,,,,,,,,,,,,,51.8564064999955,51.872439500002656,0.021048900001915172,1.0148589000018546,52.856305900000734,52.856305900000734,52.88825540000107,54.84030359999451,None,54.87115679999988,54.87115679999988,,,,,,,,,pilot08,1,2025-12-30_12h20.25.369,auditory_semantic_1back_pilot,2023.2.3,59.605980624823864,2025-12-30 12h20.40.330801 +0100,
CON,0,1,1,1,3,0,3,0,54.87115679999988,,,,,,,,,,,,,,,,54.84089459999814,54.87115679999988,0.005744000009144656,0.9968410000001313,55.90461559999676,55.90461559999676,55.92239659999905,57.857316900001024,None,,,,,,,,,,,pilot08,1,2025-12-30_12h20.25.369,auditory_semantic_1back_pilot,2023.2.3,59.605980624823864,2025-12-30 12h20.40.330801 +0100,
CON,0,1,1,1,4,0,4,0,57.88809100000071,,,,,,,,,,,,,,,,57.85819810000248,57.88809100000071,0.022925900004338473,1.029958600003738,58.85579040000448,58.85579040000448,58.904610800003866,60.840240799996536,None,60.87105000000156,60.87105000000156,,,,,,,,,pilot08,1,2025-12-30_12h20.25.369,auditory_semantic_1back_pilot,2023.2.3,59.605980624823864,2025-12-30 12h20.40.330801 +0100,
CON,0,1,1,1,5,0,5,0,60.87105000000156,,,,,,,,,,,,,,,,60.840861000004224,60.87105000000156,0.006053999997675419,0.9971873000031337,61.90476249999483,61.90476249999483,61.92180250000092,63.85611009999411,None,,,,,,,,,,,pilot08,1,2025-12-30_12h20.25.369,auditory_semantic_1back_pilot,2023.2.3,59.605980624823864,2025-12-30 12h20.40.330801 +0100,
CON,0,1,1,1,6,0,6,0,63.872615700005554,,,,,,,,,,,,,,,,63.856735099994694,63.872615700005554,0.021917799997027032,1.0146891000040341,64.85612559999572,64.85612559999572,64.87265320000006,66.84036980000383,None,66.85588069999358,66.85588069999358,,,,,,,,,pilot08,1,2025-12-30_12h20.25.369,auditory_semantic_1back_pilot,2023.2.3,59.605980624823864,2025-12-30 12h20.40.330801 +0100,
CON,0,1,1,1,7,0,7,0,66.85588069999358,,,,,,,,,,,,,,,,66.84097340000153,66.85588069999358,0.005834299998241477,0.9969789000024321,67.85573399999703,67.85573399999703,67.85573399999703,69.84040220000315,None,69.87145859999873,69.87145859999873,,,,,,,,,pilot08,1,2025-12-30_12h20.25.369,auditory_semantic_1back_pilot,2023.2.3,59.605980624823864,2025-12-30 12h20.40.330801 +0100,
CON,0,1,1,1,,,,,,,,,,,,,,,,,,,,,,,,,,,,,,,,,,,,,,,,pilot08,1,2025-12-30_12h20.25.369,auditory_semantic_1back_pilot,2023.2.3,59.605980624823864,2025-12-30 12h20.40.330801 +0100,
BASE,0,2,2,2,0,0,0,0,75.3396888999996,,,,,,,,,,69.84109040000476,69.87145859999873,75.30977279999934,space,5.4186702000006335,None,75.31168519999483,75.3396888999996,0.014813500005402602,1.0137995999975828,76.32318779999332,76.32318779999332,76.40513699999428,78.30733520000649,None,78.33783720000065,78.33783720000065,,,,,,,,,pilot08,1,2025-12-30_12h20.25.369,auditory_semantic_1back_pilot,2023.2.3,59.605980624823864,2025-12-30 12h20.40.330801 +0100,
BASE,0,2,2,2,1,0,1,0,78.33783720000065,,,,,,,,,,,,,,,,78.30808040000557,78.33783720000065,0.00512410000374075,0.9959920000110287,79.33857259999786,79.33857259999786,79.3558686000033,81.32356530000106,None,,,,,,,,,,,pilot08,1,2025-12-30_12h20.25.369,auditory_semantic_1back_pilot,2023.2.3,59.605980624823864,2025-12-30 12h20.40.330801 +0100,
BASE,0,2,2,2,2,0,2,0,81.33962689999316,,,,,,,,,,,,,,,,81.32416429999284,81.33962689999316,0.02130079999915324,1.0137600000016391,82.32310910000524,82.32310910000524,82.38825570000336,84.30768430000171,None,84.33835789999284,84.33835789999284,,,,,,,,,pilot08,1,2025-12-30_12h20.25.369,auditory_semantic_1back_pilot,2023.2.3,59.605980624823864,2025-12-30 12h20.40.330801 +0100,
BASE,0,2,2,2,3,0,3,0,84.33835789999284,,,,,,,,,,,,,,,,84.30849070000113,84.33835789999284,0.007128500001272187,0.9956935000082012,85.33863480000582,85.33863480000582,85.35607609999715,87.32304069999373,None,,,,,,,,,,,pilot08,1,2025-12-30_12h20.25.369,auditory_semantic_1back_pilot,2023.2.3,59.605980624823864,2025-12-30 12h20.40.330801 +0100,
BASE,0,2,2,2,4,0,4,0,87.33974359999411,,,,,,,,,,,,,,,,87.32363119999354,87.33974359999411,0.02127959999779705,1.0138961000047857,88.32326570000441,88.32326570000441,88.37174190000223,90.30779979999352,None,90.3386135000037,90.3386135000037,,,,,,,,,pilot08,1,2025-12-30_12h20.25.369,auditory_semantic_1back_pilot,2023.2.3,59.605980624823864,2025-12-30 12h20.40.330801 +0100,
BASE,0,2,2,2,5,0,5,0,90.3386135000037,,,,,,,,,,,,,,,,90.30835399999341,90.3386135000037,0.005702900001779199,0.9960308000008808,91.38825210000505,91.38825210000505,91.40618210000684,93.32380719999492,None,,,,,,,,,,,pilot08,1,2025-12-30_12h20.25.369,auditory_semantic_1back_pilot,2023.2.3,59.605980624823864,2025-12-30 12h20.40.330801 +0100,
BASE,0,2,2,2,6,0,6,0,93.35493309999583,,,,,,,,,,,,,,,,93.32439490000252,93.35493309999583,0.022071300001698546,1.0135028000077,94.32292029999371,94.32292029999371,94.37300009999308,96.30754700000398,None,96.32314940000651,96.32314940000651,,,,,,,,,pilot08,1,2025-12-30_12h20.25.369,auditory_semantic_1back_pilot,2023.2.3,59.605980624823864,2025-12-30 12h20.40.330801 +0100,
BASE,0,2,2,2,7,0,7,0,96.32314940000651,,,,,,,,,,,,,,,,96.30792920000385,96.32314940000651,0.004968200009898283,0.996226100003696,97.33874989999458,97.33874989999458,97.33874989999458,99.32327589999477,None,,,,,,,,,,,pilot08,1,2025-12-30_12h20.25.369,auditory_semantic_1back_pilot,2023.2.3,59.605980624823864,2025-12-30 12h20.40.330801 +0100,
BASE,0,2,2,2,,,,,,,,,,,,,,,,,,,,,,,,,,,,,,,,,,,,,,,,pilot08,1,2025-12-30_12h20.25.369,auditory_semantic_1back_pilot,2023.2.3,59.605980624823864,2025-12-30 12h20.40.330801 +0100,
ABS,0,3,3,3,0,0,0,0,100.706265300003,,,,,,,,,,99.32396840000001,99.45558589999564,100.69140019999759,space,1.231798799999524,None,100.69203999999445,100.706265300003,0.006050700001651421,0.9981263999943621,101.77177900000243,101.77177900000243,101.77177900000243,103.70712969999295,None,,,,,,,,,,,pilot08,1,2025-12-30_12h20.25.369,auditory_semantic_1back_pilot,2023.2.3,59.605980624823864,2025-12-30 12h20.40.330801 +0100,
ABS,0,3,3,3,1,0,1,0,103.72315039999376,,,,,,,,,,,,,,,,103.7077064000041,103.72315039999376,0.022602099998039193,1.0165091999951983,104.70713100000285,104.70713100000285,104.78863480000291,106.6915813999949,None,106.72238140000263,106.72238140000263,,,,,,,,,pilot08,1,2025-12-30_12h20.25.369,auditory_semantic_1back_pilot,2023.2.3,59.605980624823864,2025-12-30 12h20.40.330801 +0100,
ABS,0,3,3,3,2,0,2,0,106.72238140000263,,,,,,,,,,,,,,,,106.69218199999887,106.72238140000263,0.008629499992821366,0.9992154999927152,107.68981919999351,107.68981919999351,107.80640630000562,109.67478119999578,None,109.68975140000111,109.68975140000111,,,,,,,,,pilot08,1,2025-12-30_12h20.25.369,auditory_semantic_1back_pilot,2023.2.3,59.605980624823864,2025-12-30 12h20.40.330801 +0100,
ABS,0,3,3,3,3,0,3,0,109.68975140000111,,,,,,,,,,,,,,,,109.67536239999754,109.70672899999772,0.015250299999024719,1.0160073000006378,110.70659570000134,110.70659570000134,110.70659570000134,112.691296399993,None,112.7215850000066,112.7215850000066,,,,,,,,,pilot08,1,2025-12-30_12h20.25.369,auditory_semantic_1back_pilot,2023.2.3,59.605980624823864,2025-12-30 12h20.40.330801 +0100,
ABS,0,3,3,3,4,0,4,0,112.7215850000066,,,,,,,,,,,,,,,,112.69195789999503,112.7215850000066,0.009186299997963943,0.9983522999973502,113.73867989999417,113.73867989999417,113.75657480000518,115.70670130000508,None,,,,,,,,,,,pilot08,1,2025-12-30_12h20.25.369,auditory_semantic_1back_pilot,2023.2.3,59.605980624823864,2025-12-30 12h20.40.330801 +0100,
ABS,0,3,3,3,5,0,5,0,115.72326579999935,,,,,,,,,,,,,,,,115.70727359999728,115.72326579999935,0.022947699995711446,1.0162796999939019,116.70690150000155,116.70690150000155,116.78839869999501,118.69094410000253,None,118.72204740000598,118.72204740000598,,,,,,,,,pilot08,1,2025-12-30_12h20.25.369,auditory_semantic_1back_pilot,2023.2.3,59.605980624823864,2025-12-30 12h20.40.330801 +0100,
ABS,0,3,3,3,6,0,6,0,118.72204740000598,,,,,,,,,,,,,,,,118.69169740000507,118.72204740000598,0.00820729999395553,0.9983654999959981,119.73901380000461,119.73901380000461,119.75658299999486,121.70700009999564,None,,,,,,,,,,,pilot08,1,2025-12-30_12h20.25.369,auditory_semantic_1back_pilot,2023.2.3,59.605980624823864,2025-12-30 12h20.40.330801 +0100,
ABS,0,3,3,3,7,0,7,0,121.72356149999541,,,,,,,,,,,,,,,,121.7075932000007,121.72356149999541,0.02304109999386128,1.015791400001035,122.70657350000693,122.70657350000693,122.77213759999722,124.691287499998,None,124.72257209999952,124.72257209999952,,,,,,,,,pilot08,1,2025-12-30_12h20.25.369,auditory_semantic_1back_pilot,2023.2.3,59.605980624823864,2025-12-30 12h20.40.330801 +0100,
ABS,0,3,3,3,,,,,,,,,,,,,,,,,,,,,,,,,,,,,,,,,,,,,,,,pilot08,1,2025-12-30_12h20.25.369,auditory_semantic_1back_pilot,2023.2.3,59.605980624823864,2025-12-30 12h20.40.330801 +0100,
BASE,0,4,4,4,0,0,0,0,129.17231660000107,,,,,,,,,,124.69206970000232,124.72257209999952,129.14294829999562,space,4.406927999996697,None,129.14407870000286,129.17231660000107,0.007994200001121499,0.996725899996818,130.17237349999778,130.17237349999778,130.19025580000016,132.15868330000376,None,,,,,,,,,,,pilot08,1,2025-12-30_12h20.25.369,auditory_semantic_1back_pilot,2023.2.3,59.605980624823864,2025-12-30 12h20.40.330801 +0100,
BASE,0,4,4,4,1,0,1,0,132.19003749999683,,,,,,,,,,,,,,,,132.15980769999442,132.19003749999683,0.02618600000278093,1.0164559999975609,133.15749110000615,133.15749110000615,133.20697169999767,135.14426210000238,None,135.17408579999756,135.17408579999756,,,,,,,,,pilot08,1,2025-12-30_12h20.25.369,auditory_semantic_1back_pilot,2023.2.3,59.605980624823864,2025-12-30 12h20.40.330801 +0100,
BASE,0,4,4,4,2,0,2,0,135.17408579999756,,,,,,,,,,,,,,,,135.1449954999989,135.17408579999756,0.008336200000485405,1.0022841000027256,136.14378490000672,136.14378490000672,136.20950670000457,138.129729399996,None,138.16076509999402,138.16076509999402,,,,,,,,,pilot08,1,2025-12-30_12h20.25.369,auditory_semantic_1back_pilot,2023.2.3,59.605980624823864,2025-12-30 12h20.40.330801 +0100,
BASE,0,4,4,4,3,0,3,0,138.16076509999402,,,,,,,,,,,,,,,,138.13069160000305,138.16076509999402,0.017593199998373166,1.0317460000078427,139.15811089999625,139.15811089999625,139.174929300003,141.14171650000208,None,141.1720165000006,141.1720165000006,,,,,,,,,pilot08,1,2025-12-30_12h20.25.369,auditory_semantic_1back_pilot,2023.2.3,59.605980624823864,2025-12-30 12h20.40.330801 +0100,
BASE,0,4,4,4,4,0,4,0,141.1720165000006,,,,,,,,,,,,,,,,141.1422159999929,141.1720165000006,0.007443099995725788,0.9964135000045644,142.1724291999999,142.1724291999999,142.19019809999736,144.15689030000067,None,,,,,,,,,,,pilot08,1,2025-12-30_12h20.25.369,auditory_semantic_1back_pilot,2023.2.3,59.605980624823864,2025-12-30 12h20.40.330801 +0100,
BASE,0,4,4,4,5,0,5,0,144.17365500000597,,,,,,,,,,,,,,,,144.15751289999753,144.17365500000597,0.021555600003921427,1.0148942999949213,145.1573098999943,145.1573098999943,145.18924599999445,147.14128919999348,None,147.15675160000683,147.15675160000683,,,,,,,,,pilot08,1,2025-12-30_12h20.25.369,auditory_semantic_1back_pilot,2023.2.3,59.605980624823864,2025-12-30 12h20.40.330801 +0100,
BASE,0,4,4,4,6,0,6,0,147.15675160000683,,,,,,,,,,,,,,,,147.14187249999668,147.15675160000683,0.005323499994119629,0.9968197999987751,148.206165399999,148.206165399999,148.206165399999,150.15713320000214,None,,,,,,,,,,,pilot08,1,2025-12-30_12h20.25.369,auditory_semantic_1back_pilot,2023.2.3,59.605980624823864,2025-12-30 12h20.40.330801 +0100,
BASE,0,4,4,4,7,0,7,0,150.1737318999949,,,,,,,,,,,,,,,,150.15771539999696,150.1737318999949,0.021833200007677078,1.014391799995792,151.15682230000675,151.15682230000675,151.22227030000067,153.1418421999988,None,153.1726634999941,153.1726634999941,,,,,,,,,pilot08,1,2025-12-30_12h20.25.369,auditory_semantic_1back_pilot,2023.2.3,59.605980624823864,2025-12-30 12h20.40.330801 +0100,
BASE,0,4,4,4,,,,,,,,,,,,,,,,,,,,,,,,,,,,,,,,,,,,,,,,pilot08,1,2025-12-30_12h20.25.369,auditory_semantic_1back_pilot,2023.2.3,59.605980624823864,2025-12-30 12h20.40.330801 +0100,
CON,0,5,5,5,0,0,0,0,155.2228640999965,,,,,,,,,,153.14249080000445,153.1726634999941,155.19288560000132,space,2.003636400011601,None,155.19414289999986,155.2228640999965,0.008438599994406104,0.9982272000052035,156.223027,156.223027,156.24047920000157,158.2074150999979,None,,,,,,,,,,,pilot08,1,2025-12-30_12h20.25.369,auditory_semantic_1back_pilot,2023.2.3,59.605980624823864,2025-12-30 12h20.40.330801 +0100,
CON,0,5,5,5,1,0,1,0,158.22434149999754,,,,,,,,,,,,,,,,158.2081196999934,158.22434149999754,0.02192280000599567,1.0162430000054883,159.20853210000496,159.20853210000496,159.23992120000185,161.50674700000673,None,,,,,,,,,,,pilot08,1,2025-12-30_12h20.25.369,auditory_semantic_1back_pilot,2023.2.3,59.605980624823864,2025-12-30 12h20.40.330801 +0100,
CON,0,5,5,5,2,0,2,0,161.5392087999935,,,,,,,,,,,,,,,,161.5073226999957,161.5392087999935,0.32084679999388754,1.3139123000000836,162.20705329999328,162.20705329999328,162.60696639999514,164.19130970000697,None,164.20731709999382,164.20731709999382,,,,,,,,,pilot08,1,2025-12-30_12h20.25.369,auditory_semantic_1back_pilot,2023.2.3,59.605980624823864,2025-12-30 12h20.40.330801 +0100,
CON,0,5,5,5,3,0,3,0,164.20731709999382,,,,,,,,,,,,,,,,164.19188709999435,164.20731709999382,0.005615000001853332,0.997269999992568,165.22284400000353,165.22284400000353,165.22284400000353,167.20720340000116,None,,,,,,,,,,,pilot08,1,2025-12-30_12h20.25.369,auditory_semantic_1back_pilot,2023.2.3,59.605980624823864,2025-12-30 12h20.40.330801 +0100,
CON,0,5,5,5,4,0,4,0,167.2394864999951,,,,,,,,,,,,,,,,167.20778510000673,167.2394864999951,0.02376110000477638,1.0160804000042845,168.20816160000686,168.20816160000686,168.3074801000039,170.1923736000026,None,170.22274779999861,170.22274779999861,,,,,,,,,pilot08,1,2025-12-30_12h20.25.369,auditory_semantic_1back_pilot,2023.2.3,59.605980624823864,2025-12-30 12h20.40.330801 +0100,
CON,0,5,5,5,5,0,5,0,170.22274779999861,,,,,,,,,,,,,,,,170.1930369000038,170.22274779999861,0.007893300004070625,0.9973406999924919,171.2562040000048,171.2562040000048,171.27373159999843,173.20775909999793,None,,,,,,,,,,,pilot08,1,2025-12-30_12h20.25.369,auditory_semantic_1back_pilot,2023.2.3,59.605980624823864,2025-12-30 12h20.40.330801 +0100,
CON,0,5,5,5,6,0,6,0,173.23977190000005,,,,,,,,,,,,,,,,173.20853960000386,173.23977190000005,0.023519199996371754,1.0150413999945158,174.20738540000457,174.20738540000457,174.30722790000436,176.19175600000017,None,176.20737699999881,176.20737699999881,,,,,,,,,pilot08,1,2025-12-30_12h20.25.369,auditory_semantic_1back_pilot,2023.2.3,59.605980624823864,2025-12-30 12h20.40.330801 +0100,
CON,0,5,5,5,7,0,7,0,176.20737699999881,,,,,,,,,,,,,,,,176.1923334000021,176.20737699999881,0.006138900003861636,0.9979017000005115,177.22292810000363,177.22292810000363,177.22292810000363,179.20750760000374,None,,,,,,,,,,,pilot08,1,2025-12-30_12h20.25.369,auditory_semantic_1back_pilot,2023.2.3,59.605980624823864,2025-12-30 12h20.40.330801 +0100,
CON,0,5,5,5,,,,,,,,,,,,,,,,,,,,,,,,,,,,,,,,,,,,,,,,pilot08,1,2025-12-30_12h20.25.369,auditory_semantic_1back_pilot,2023.2.3,59.605980624823864,2025-12-30 12h20.40.330801 +0100,
BASE,0,6,6,6,0,0,0,0,195.42353879999428,,,,,,,,,,179.20807849999983,179.2240102000069,195.40786669999943,space,16.177403599998797,None,195.4084831999935,195.42353879999428,0.004186099991784431,1.0008958999969764,196.407958900003,196.407958900003,196.49003220000304,198.39227110000502,None,198.40776099999493,198.40776099999493,,,,,,,,,pilot08,1,2025-12-30_12h20.25.369,auditory_semantic_1back_pilot,2023.2.3,59.605980624823864,2025-12-30 12h20.40.330801 +0100,
BASE,0,6,6,6,1,0,1,0,198.40776099999493,,,,,,,,,,,,,,,,198.39290770000662,198.40776099999493,-0.00015809999604243785,1.0008588999917265,199.40799170000537,199.40799170000537,199.40799170000537,201.3928053999989,None,201.40738230000716,201.40738230000716,,,,,,,,,pilot08,1,2025-12-30_12h20.25.369,auditory_semantic_1back_pilot,2023.2.3,59.605980624823864,2025-12-30 12h20.40.330801 +0100,
BASE,0,6,6,6,2,0,2,0,201.40738230000716,,,,,,,,,,,,,,,,201.39349909999873,201.40738230000716,-0.0005369999998947605,1.0009250000002794,202.40805080000428,202.40805080000428,202.40805080000428,204.3922542999935,None,204.4077205999929,204.4077205999929,,,,,,,,,pilot08,1,2025-12-30_12h20.25.369,auditory_semantic_1back_pilot,2023.2.3,59.605980624823864,2025-12-30 12h20.40.330801 +0100,
BASE,0,6,6,6,3,0,3,0,204.4077205999929,,,,,,,,,,,,,,,,204.39279699999315,204.4077205999929,-0.00016870000399649143,1.0006948999944143,205.40784390000044,205.40784390000044,205.40784390000044,207.39259930000117,None,207.4077260000049,207.4077260000049,,,,,,,,,pilot08,1,2025-12-30_12h20.25.369,auditory_semantic_1back_pilot,2023.2.3,59.605980624823864,2025-12-30 12h20.40.330801 +0100,
BASE,0,6,6,6,4,0,4,0,207.4077260000049,,,,,,,,,,,,,,,,207.39322290000564,207.4077260000049,-0.0001593000051798299,1.000782100003562,208.4078770000051,208.4078770000051,208.4078770000051,210.39276390000305,None,210.4076999999961,210.4076999999961,,,,,,,,,pilot08,1,2025-12-30_12h20.25.369,auditory_semantic_1back_pilot,2023.2.3,59.605980624823864,2025-12-30 12h20.40.330801 +0100,
BASE,0,6,6,6,5,0,5,0,210.4076999999961,,,,,,,,,,,,,,,,210.39334140000574,210.4076999999961,-0.00018740000086836517,1.0008182000019588,211.40779339999426,211.40779339999426,211.40779339999426,213.39340380000067,None,213.4078487999941,213.4078487999941,,,,,,,,,pilot08,1,2025-12-30_12h20.25.369,auditory_semantic_1back_pilot,2023.2.3,59.605980624823864,2025-12-30 12h20.40.330801 +0100,
BASE,0,6,6,6,6,0,6,0,213.4078487999941,,,,,,,,,,,,,,,,213.39396050000505,213.4078487999941,-4.389999958220869e-05,1.000869399998919,214.40790400000697,214.40790400000697,214.40790400000697,216.39281390000542,None,216.40768099999696,216.40768099999696,,,,,,,,,pilot08,1,2025-12-30_12h20.25.369,auditory_semantic_1back_pilot,2023.2.3,59.605980624823864,2025-12-30 12h20.40.330801 +0100,
BASE,0,6,6,6,7,0,7,0,216.40768099999696,,,,,,,,,,,,,,,,216.39338449999923,216.40768099999696,-0.00024500000290572643,1.000625000000582,217.40779139999358,217.40779139999358,217.40779139999358,219.39238879999903,None,219.4237909999938,219.4237909999938,,,,,,,,,pilot08,1,2025-12-30_12h20.25.369,auditory_semantic_1back_pilot,2023.2.3,59.605980624823864,2025-12-30 12h20.40.330801 +0100,
BASE,0,6,6,6,,,,,,,,,,,,,,,,,,,,,,,,,,,,,,,,,,,,,,,,pilot08,1,2025-12-30_12h20.25.369,auditory_semantic_1back_pilot,2023.2.3,59.605980624823864,2025-12-30 12h20.40.330801 +0100,
ABS,0,7,7,7,0,0,0,0,221.3747677999927,,,,,,,,,,219.3930330000003,219.4237909999938,221.35891720000654,space,1.9293287999898894,None,221.35956660000375,221.3747677999927,0.007024400008958764,0.9988906000071438,222.40688739999314,222.40688739999314,222.40688739999314,224.37542520000716,None,,,,,,,,,,,pilot08,1,2025-12-30_12h20.25.369,auditory_semantic_1back_pilot,2023.2.3,59.605980624823864,2025-12-30 12h20.40.330801 +0100,
ABS,0,7,7,7,1,0,1,0,224.39144320000196,,,,,,,,,,,,,,,,224.3761380999931,224.39144320000196,0.02439540000341367,1.016923000002862,225.37511700000323,225.37511700000323,225.42384709999897,227.35915200000454,None,227.37466129999666,227.37466129999666,,,,,,,,,pilot08,1,2025-12-30_12h20.25.369,auditory_semantic_1back_pilot,2023.2.3,59.605980624823864,2025-12-30 12h20.40.330801 +0100,
ABS,0,7,7,7,2,0,2,0,227.37466129999666,,,,,,,,,,,,,,,,227.35971879999852,227.37466129999666,0.007993500010343269,1.000034600001527,228.35818850000214,228.35818850000214,228.3903510999953,230.3430068000016,None,230.35832230000233,230.35832230000233,,,,,,,,,pilot08,1,2025-12-30_12h20.25.369,auditory_semantic_1back_pilot,2023.2.3,59.605980624823864,2025-12-30 12h20.40.330801 +0100,
ABS,0,7,7,7,3,0,3,0,230.35832230000233,,,,,,,,,,,,,,,,230.34353450000344,230.35832230000233,-0.0007326999912038445,1.000425100006396,231.35874650000187,231.35874650000187,231.35874650000187,233.34303469999577,None,233.35810460000357,233.35810460000357,,,,,,,,,pilot08,1,2025-12-30_12h20.25.369,auditory_semantic_1back_pilot,2023.2.3,59.605980624823864,2025-12-30 12h20.40.330801 +0100,
ABS,0,7,7,7,4,0,4,0,233.35810460000357,,,,,,,,,,,,,,,,233.34360700000252,233.35810460000357,-0.0008849000005284324,1.0002327999973204,234.35836630000267,234.35836630000267,234.35836630000267,236.34271440000157,None,236.35802640000475,236.35802640000475,,,,,,,,,pilot08,1,2025-12-30_12h20.25.369,auditory_semantic_1back_pilot,2023.2.3,59.605980624823864,2025-12-30 12h20.40.330801 +0100,
ABS,0,7,7,7,5,0,5,0,236.35802640000475,,,,,,,,,,,,,,,,236.3433539999969,236.35802640000475,-0.000970599998254329,0.9997470000089379,237.35826310000266,237.35826310000266,237.35826310000266,239.34309320000466,None,239.35837289999472,239.35837289999472,,,,,,,,,pilot08,1,2025-12-30_12h20.25.369,auditory_semantic_1back_pilot,2023.2.3,59.605980624823864,2025-12-30 12h20.40.330801 +0100,
ABS,0,7,7,7,6,0,6,0,239.35837289999472,,,,,,,,,,,,,,,,239.3435892999987,239.35837289999472,-0.0006164999940665439,0.9999877000082051,240.3581966000056,240.3581966000056,240.3581966000056,242.34423630000674,None,242.3744413999957,242.3744413999957,,,,,,,,,pilot08,1,2025-12-30_12h20.25.369,auditory_semantic_1back_pilot,2023.2.3,59.605980624823864,2025-12-30 12h20.40.330801 +0100,
ABS,0,7,7,7,7,0,7,0,242.3744413999957,,,,,,,,,,,,,,,,242.34501600000658,242.3744413999957,0.015517400010139681,1.0162719000072684,243.3584308999998,243.3584308999998,243.3752650999959,245.34246650000568,None,245.3587081000005,245.3587081000005,,,,,,,,,pilot08,1,2025-12-30_12h20.25.369,auditory_semantic_1back_pilot,2023.2.3,59.605980624823864,2025-12-30 12h20.40.330801 +0100,
ABS,0,7,7,7,,,,,,,,,,,,,,,,,,,,,,,,,,,,,,,,,,,,,,,,pilot08,1,2025-12-30_12h20.25.369,auditory_semantic_1back_pilot,2023.2.3,59.605980624823864,2025-12-30 12h20.40.330801 +0100,
BASE,0,8,8,8,0,0,0,0,247.29181080000126,,,,,,,,,,245.3427934999927,245.3587081000005,247.27584400000342,space,1.914144900001702,None,247.2764976000035,247.29181080000126,0.006064500004868023,1.0001074000028893,248.27520210000512,248.27520210000512,248.32403980000527,250.2597922999994,None,250.27483510000457,250.27483510000457,,,,,,,,,pilot08,1,2025-12-30_12h20.25.369,auditory_semantic_1back_pilot,2023.2.3,59.605980624823864,2025-12-30 12h20.40.330801 +0100,
BASE,0,8,8,8,1,0,1,0,250.27483510000457,,,,,,,,,,,,,,,,250.26054139999906,250.27483510000457,0.01614259999769274,1.0162778000085382,251.2750146000035,251.2750146000035,251.2750146000035,253.2596193000063,None,253.27519689999463,253.27519689999463,,,,,,,,,pilot08,1,2025-12-30_12h20.25.369,auditory_semantic_1back_pilot,2023.2.3,59.605980624823864,2025-12-30 12h20.40.330801 +0100,
BASE,0,8,8,8,2,0,2,0,253.27519689999463,,,,,,,,,,,,,,,,253.26021469999978,253.27519689999463,-0.0007076999900164083,1.0001627000019653,254.27534930000547,254.27534930000547,254.27534930000547,256.2598016999982,None,256.2751003000012,256.2751003000012,,,,,,,,,pilot08,1,2025-12-30_12h20.25.369,auditory_semantic_1back_pilot,2023.2.3,59.605980624823864,2025-12-30 12h20.40.330801 +0100,
BASE,0,8,8,8,3,0,3,0,256.2751003000012,,,,,,,,,,,,,,,,256.26036020000174,256.2751003000012,-0.0008103000000119209,1.000702100005583,257.2757483000023,257.2757483000023,257.2757483000023,259.2598343999998,None,259.2751786000008,259.2751786000008,,,,,,,,,pilot08,1,2025-12-30_12h20.25.369,auditory_semantic_1back_pilot,2023.2.3,59.605980624823864,2025-12-30 12h20.40.330801 +0100,
BASE,0,8,8,8,4,0,4,0,259.2751786000008,,,,,,,,,,,,,,,,259.2604105000064,259.2751786000008,-0.0007102999952621758,1.0001247000036528,260.2751685999974,260.2751685999974,260.2751685999974,262.2596048999985,None,262.2747127000039,262.2747127000039,,,,,,,,,pilot08,1,2025-12-30_12h20.25.369,auditory_semantic_1back_pilot,2023.2.3,59.605980624823864,2025-12-30 12h20.40.330801 +0100,
BASE,0,8,8,8,5,0,5,0,262.2747127000039,,,,,,,,,,,,,,,,262.26023830000486,262.2747127000039,0.01624120000633411,1.0162516999989748,263.27595019999717,263.27595019999717,263.27595019999717,265.259804500005,None,265.2753623000026,265.2753623000026,,,,,,,,,pilot08,1,2025-12-30_12h20.25.369,auditory_semantic_1back_pilot,2023.2.3,59.605980624823864,2025-12-30 12h20.40.330801 +0100,
BASE,0,8,8,8,6,0,6,0,265.2753623000026,,,,,,,,,,,,,,,,265.2603750999988,265.2753623000026,-0.00044079999497625977,1.0007562000100734,266.27574430000095,266.27574430000095,266.27574430000095,268.2601010000071,None,268.27544090000447,268.27544090000447,,,,,,,,,pilot08,1,2025-12-30_12h20.25.369,auditory_semantic_1back_pilot,2023.2.3,59.605980624823864,2025-12-30 12h20.40.330801 +0100,
BASE,0,8,8,8,7,0,7,0,268.27544090000447,,,,,,,,,,,,,,,,268.260735200005,268.27544090000447,-0.000446999998530373,1.0011677000002237,269.2760530999949,269.2760530999949,269.2760530999949,271.25997440000356,None,271.291472900004,271.291472900004,,,,,,,,,pilot08,1,2025-12-30_12h20.25.369,auditory_semantic_1back_pilot,2023.2.3,59.605980624823864,2025-12-30 12h20.40.330801 +0100,
BASE,0,8,8,8,,,,,,,,,,,,,,,,,,,,,,,,,,,,,,,,,,,,,,,,pilot08,1,2025-12-30_12h20.25.369,auditory_semantic_1back_pilot,2023.2.3,59.605980624823864,2025-12-30 12h20.40.330801 +0100,
CON,0,9,9,9,0,0,0,0,273.8576552000013,,,,,,,,,,271.26036349999777,271.291472900004,273.82786649999616,space,2.518796399992425,None,273.82901489999495,273.8576552000013,0.008253200008766726,0.997220200006268,274.89085660000273,274.89085660000273,274.90874660000554,276.84226790000685,None,,,,,,,,,,,pilot08,1,2025-12-30_12h20.25.369,auditory_semantic_1back_pilot,2023.2.3,59.605980624823864,2025-12-30 12h20.40.330801 +0100,
CON,0,9,9,9,1,0,1,0,276.8590441999986,,,,,,,,,,,,,,,,276.843174499998,276.8590441999986,0.02162500000849832,1.0145787000074051,277.8421324999945,277.8421324999945,277.90795490000164,279.82670119999966,None,279.8575450000062,279.8575450000062,,,,,,,,,pilot08,1,2025-12-30_12h20.25.369,auditory_semantic_1back_pilot,2023.2.3,59.605980624823864,2025-12-30 12h20.40.330801 +0100,
CON,0,9,9,9,2,0,2,0,279.8575450000062,,,,,,,,,,,,,,,,279.82743910000136,279.8575450000062,0.007152999998652376,0.9978690999996616,280.89087639999343,280.89087639999343,280.9088281000004,282.842570599998,None,,,,,,,,,,,pilot08,1,2025-12-30_12h20.25.369,auditory_semantic_1back_pilot,2023.2.3,59.605980624823864,2025-12-30 12h20.40.330801 +0100,
CON,0,9,9,9,3,0,3,0,282.8588679999957,,,,,,,,,,,,,,,,282.8432324000023,282.8588679999957,0.022086299999500625,1.0152437000069767,283.84252999999444,283.84252999999444,283.9079507999995,285.8271986000036,None,285.85767149999447,285.85767149999447,,,,,,,,,pilot08,1,2025-12-30_12h20.25.369,auditory_semantic_1back_pilot,2023.2.3,59.605980624823864,2025-12-30 12h20.40.330801 +0100,
CON,0,9,9,9,4,0,4,0,285.85767149999447,,,,,,,,,,,,,,,,285.82794289999583,285.85767149999447,0.0071755000099074095,0.9978915000101551,286.85777190000226,286.85777190000226,286.8757340000011,288.8425636000029,None,,,,,,,,,,,pilot08,1,2025-12-30_12h20.25.369,auditory_semantic_1back_pilot,2023.2.3,59.605980624823864,2025-12-30 12h20.40.330801 +0100,
CON,0,9,9,9,5,0,5,0,288.8589306000067,,,,,,,,,,,,,,,,288.8431535999989,288.8589306000067,0.022072500010835938,1.015051599999424,289.84234869999636,289.84234869999636,289.87466240000504,291.82715270000335,None,291.84240419999696,291.84240419999696,,,,,,,,,pilot08,1,2025-12-30_12h20.25.369,auditory_semantic_1back_pilot,2023.2.3,59.605980624823864,2025-12-30 12h20.40.330801 +0100,
CON,0,9,9,9,6,0,6,0,291.84240419999696,,,,,,,,,,,,,,,,291.8277448000008,291.84240419999696,0.006851300000562333,0.997870100007276,292.8579241999978,292.8579241999978,292.8579241999978,294.8425176000019,None,,,,,,,,,,,pilot08,1,2025-12-30_12h20.25.369,auditory_semantic_1back_pilot,2023.2.3,59.605980624823864,2025-12-30 12h20.40.330801 +0100,
CON,0,9,9,9,7,0,7,0,294.85908259999997,,,,,,,,,,,,,,,,294.8428255000035,294.85908259999997,0.02113670000107959,1.0153659000061452,295.84275749999506,295.84275749999506,295.89169059999404,297.82695659999445,None,297.85807020000357,297.85807020000357,,,,,,,,,pilot08,1,2025-12-30_12h20.25.369,auditory_semantic_1back_pilot,2023.2.3,59.605980624823864,2025-12-30 12h20.40.330801 +0100,
CON,0,9,9,9,,,,,,,,,,,,,,,,,,,,,,,,,,,,,,,,,,,,,,,,pilot08,1,2025-12-30_12h20.25.369,auditory_semantic_1back_pilot,2023.2.3,59.605980624823864,2025-12-30 12h20.40.330801 +0100,
BASE,0,10,10,10,0,0,0,0,308.4745419999963,,,,,,,,,,297.82755960000213,297.85807020000357,308.44432219999726,space,10.576998899996397,None,308.445378599994,308.4745419999963,0.0076176000002305955,0.9986586000013631,309.4748566000053,309.4748566000053,309.4925954000064,311.459786899999,None,,,,,,,,,,,pilot08,1,2025-12-30_12h20.25.369,auditory_semantic_1back_pilot,2023.2.3,59.605980624823864,2025-12-30 12h20.40.330801 +0100,
BASE,0,10,10,10,1,0,1,0,311.4761498000007,,,,,,,,,,,,,,,,311.46049440000206,311.4761498000007,0.022074799999245442,1.0157726999896113,312.45936520000396,312.45936520000396,312.5083750000049,314.44405469999765,None,314.45972519999486,314.45972519999486,,,,,,,,,pilot08,1,2025-12-30_12h20.25.369,auditory_semantic_1back_pilot,2023.2.3,59.605980624823864,2025-12-30 12h20.40.330801 +0100,
BASE,0,10,10,10,2,0,2,0,314.45972519999486,,,,,,,,,,,,,,,,314.44463460000406,314.45972519999486,0.007349499996053055,0.9977434999891557,315.5079373000044,315.5079373000044,315.5079373000044,317.4601454999938,None,,,,,,,,,,,pilot08,1,2025-12-30_12h20.25.369,auditory_semantic_1back_pilot,2023.2.3,59.605980624823864,2025-12-30 12h20.40.330801 +0100,
BASE,0,10,10,10,3,0,3,0,317.476064699993,,,,,,,,,,,,,,,,317.46074059999955,317.476064699993,0.02338410000083968,1.0165511999948649,318.46027769999637,318.46027769999637,318.47627129999455,320.44478900000104,None,320.4751823999977,320.4751823999977,,,,,,,,,pilot08,1,2025-12-30_12h20.25.369,auditory_semantic_1back_pilot,2023.2.3,59.605980624823864,2025-12-30 12h20.40.330801 +0100,
BASE,0,10,10,10,4,0,4,0,320.4751823999977,,,,,,,,,,,,,,,,320.44558650000545,320.4751823999977,0.010041000001365319,0.9983578999963356,321.45970609999495,321.45970609999495,321.47630769999523,323.4446381000016,None,323.45960220000416,323.45960220000416,,,,,,,,,pilot08,1,2025-12-30_12h20.25.369,auditory_semantic_1back_pilot,2023.2.3,59.605980624823864,2025-12-30 12h20.40.330801 +0100,
BASE,0,10,10,10,5,0,5,0,323.45960220000416,,,,,,,,,,,,,,,,323.445229799996,323.45960220000416,0.007340999989537522,0.9982698999956483,324.52531919999456,324.52531919999456,324.52531919999456,326.46020169999974,None,,,,,,,,,,,pilot08,1,2025-12-30_12h20.25.369,auditory_semantic_1back_pilot,2023.2.3,59.605980624823864,2025-12-30 12h20.40.330801 +0100,
BASE,0,10,10,10,6,0,6,0,326.476244999998,,,,,,,,,,,,,,,,326.4608162999939,326.476244999998,0.02167219998955261,1.0166367999918293,327.4602032999974,327.4602032999974,327.4919336000021,329.44415399999707,None,329.4593820000009,329.4593820000009,,,,,,,,,pilot08,1,2025-12-30_12h20.25.369,auditory_semantic_1back_pilot,2023.2.3,59.605980624823864,2025-12-30 12h20.40.330801 +0100,
BASE,0,10,10,10,7,0,7,0,329.4593820000009,,,,,,,,,,,,,,,,329.4447579999978,329.4593820000009,0.007300500001292676,0.9988095000007888,330.4918159999943,330.4918159999943,330.4918159999943,332.45980349999445,None,,,,,,,,,,,pilot08,1,2025-12-30_12h20.25.369,auditory_semantic_1back_pilot,2023.2.3,59.605980624823864,2025-12-30 12h20.40.330801 +0100,
BASE,0,10,10,10,,,,,,,,,,,,,,,,,,,,,,,,,,,,,,,,,,,,,,,,pilot08,1,2025-12-30_12h20.25.369,auditory_semantic_1back_pilot,2023.2.3,59.605980624823864,2025-12-30 12h20.40.330801 +0100,
ABS,0,11,11,11,0,0,0,0,337.2585614999989,,,,,,,,,,332.46048389999487,332.4921433999989,337.2282692000008,space,4.719023400000879,None,337.2293651999935,337.2585614999989,0.008097199999610893,0.9978906000033021,338.258739900004,338.258739900004,338.27630290000525,340.24363620000076,None,,,,,,,,,,,pilot08,1,2025-12-30_12h20.25.369,auditory_semantic_1back_pilot,2023.2.3,59.605980624823864,2025-12-30 12h20.40.330801 +0100,
ABS,0,11,11,11,1,0,1,0,340.27501060000213,,,,,,,,,,,,,,,,340.24439609999536,340.27501060000213,0.023937100006151013,1.0154681999993045,341.2431673999963,341.2431673999963,341.31031800000346,343.22769620000327,None,343.24301350000314,343.24301350000314,,,,,,,,,pilot08,1,2025-12-30_12h20.25.369,auditory_semantic_1back_pilot,2023.2.3,59.605980624823864,2025-12-30 12h20.40.330801 +0100,
ABS,0,11,11,11,2,0,2,0,343.24301350000314,,,,,,,,,,,,,,,,343.22831039999437,343.24301350000314,0.006572199999936856,0.9985880000022007,344.32535699999426,344.32535699999426,344.32535699999426,346.2436020000023,None,,,,,,,,,,,pilot08,1,2025-12-30_12h20.25.369,auditory_semantic_1back_pilot,2023.2.3,59.605980624823864,2025-12-30 12h20.40.330801 +0100,
ABS,0,11,11,11,3,0,3,0,346.2603225000057,,,,,,,,,,,,,,,,346.2439611000009,346.2603225000057,0.020041499999933876,1.0156566000077873,347.24333040000056,347.24333040000056,347.32490609999513,349.2275795000023,None,349.24339200000395,349.24339200000395,,,,,,,,,pilot08,1,2025-12-30_12h20.25.369,auditory_semantic_1back_pilot,2023.2.3,59.605980624823864,2025-12-30 12h20.40.330801 +0100,
ABS,0,11,11,11,4,0,4,0,349.24339200000395,,,,,,,,,,,,,,,,349.2280033999996,349.24339200000395,0.005724400005419739,0.9982319000118878,350.2752741000004,350.2752741000004,350.2752741000004,352.24346899999364,None,,,,,,,,,,,pilot08,1,2025-12-30_12h20.25.369,auditory_semantic_1back_pilot,2023.2.3,59.605980624823864,2025-12-30 12h20.40.330801 +0100,
ABS,0,11,11,11,5,0,5,0,352.2606703000056,,,,,,,,,,,,,,,,352.24391099999775,352.2606703000056,0.021869700009119697,1.0155610000074375,353.2434923999972,353.2434923999972,353.3425098000007,355.2276911999943,None,355.2431080999959,355.2431080999959,,,,,,,,,pilot08,1,2025-12-30_12h20.25.369,auditory_semantic_1back_pilot,2023.2.3,59.605980624823864,2025-12-30 12h20.40.330801 +0100,
ABS,0,11,11,11,6,0,6,0,355.2431080999959,,,,,,,,,,,,,,,,355.2282187999954,355.2431080999959,0.0066030000016326085,0.9980465000116965,356.27530009999464,356.27530009999464,356.27530009999464,358.243581600007,None,,,,,,,,,,,pilot08,1,2025-12-30_12h20.25.369,auditory_semantic_1back_pilot,2023.2.3,59.605980624823864,2025-12-30 12h20.40.330801 +0100,
ABS,0,11,11,11,7,0,7,0,358.2600472000049,,,,,,,,,,,,,,,,358.2441581000021,358.2600472000049,0.02255470000091009,1.0158570000057807,359.2435603000049,359.2435603000049,359.30879739999364,361.2279165999935,None,361.2591342999949,361.2591342999949,,,,,,,,,pilot08,1,2025-12-30_12h20.25.369,auditory_semantic_1back_pilot,2023.2.3,59.605980624823864,2025-12-30 12h20.40.330801 +0100,
ABS,0,11,11,11,,,,,,,,,,,,,,,,,,,,,,,,,,,,,,,,,,,,,,,,pilot08,1,2025-12-30_12h20.25.369,auditory_semantic_1back_pilot,2023.2.3,59.605980624823864,2025-12-30 12h20.40.330801 +0100,
,,,,,,,,,,,,,,,,,,,,,,,,,,,,,,,,,,,,361.22825990000274,361.2591342999949,361.2591342999949,362.2601097000006,419.81309209999745,space,58.541808399997535,None,pilot08,1,2025-12-30_12h20.25.369,auditory_semantic_1back_pilot,2023.2.3,59.605980624823864,2025-12-30 12h20.40.330801 +0100,
